,Musikgenres,Unnamed: 14,Unnamed: 15,date,expName,frameRate,key_resp_2.keys,key_resp_2.rt,key_resp_3.keys,participant,rating_preferences.response,rating_preferences.rt,session,trials.thisIndex,trials.thisN,trials.thisRepN,trials.thisTrialN
0,,,,2018_Jun_20_1951,stomp,60.2736403129,right,4.18720006943,,sub-09,,,1,,,,
1,Klassik,,,2018_Jun_20_1951,stomp,60.2736403129,,,,sub-09,7.0,3.278,1,0.0,0.0,0.0,0.0
2,Blues,,,2018_Jun_20_1951,stomp,60.2736403129,,,,sub-09,4.0,4.0889999999999995,1,1.0,1.0,0.0,1.0
3,Country,,,2018_Jun_20_1951,stomp,60.2736403129,,,,sub-09,3.0,3.3089999999999997,1,2.0,2.0,0.0,2.0
4,Dance/Electronica,,,2018_Jun_20_1951,stomp,60.2736403129,,,,sub-09,2.0,2.708,1,3.0,3.0,0.0,3.0
5,Folk,,,2018_Jun_20_1951,stomp,60.2736403129,,,,sub-09,2.0,2.7460000000000004,1,4.0,4.0,0.0,4.0
6,Rap/HipHop,,,2018_Jun_20_1951,stomp,60.2736403129,,,,sub-09,1.0,2.2119999999999997,1,5.0,5.0,0.0,5.0
7,Soul/Funk,,,2018_Jun_20_1951,stomp,60.2736403129,,,,sub-09,6.0,2.7119999999999997,1,6.0,6.0,0.0,6.0
8,Religious,,,2018_Jun_20_1951,stomp,60.2736403129,,,,sub-09,3.0,3.076,1,7.0,7.0,0.0,7.0
9,Alternative,,,2018_Jun_20_1951,stomp,60.2736403129,,,,sub-09,3.0,3.389,1,8.0,8.0,0.0,8.0
10,Jazz,,,2018_Jun_20_1951,stomp,60.2736403129,,,,sub-09,4.0,1.875,1,9.0,9.0,0.0,9.0
11,Rock,,,2018_Jun_20_1951,stomp,60.2736403129,,,,sub-09,6.0,2.1319999999999997,1,10.0,10.0,0.0,10.0
12,Pop,,,2018_Jun_20_1951,stomp,60.2736403129,,,,sub-09,4.0,2.9619999999999997,1,11.0,11.0,0.0,11.0
13,Heavy/Metal,,,2018_Jun_20_1951,stomp,60.2736403129,,,,sub-09,5.0,2.928,1,12.0,12.0,0.0,12.0
14,Soundtrack/Theme_Song,,,2018_Jun_20_1951,stomp,60.2736403129,,,,sub-09,7.0,2.592,1,13.0,13.0,0.0,13.0
0,,,,2018_Jun_22_1641,stomp,60.1779093925,right,21.7224240303,,sub-11,,,1,,,,
1,Klassik,,,2018_Jun_22_1641,stomp,60.1779093925,,,,sub-11,6.0,7.91,1,0.0,0.0,0.0,0.0
2,Blues,,,2018_Jun_22_1641,stomp,60.1779093925,,,,sub-11,2.0,8.225,1,1.0,1.0,0.0,1.0
3,Country,,,2018_Jun_22_1641,stomp,60.1779093925,,,,sub-11,5.0,8.173,1,2.0,2.0,0.0,2.0
4,Dance/Electronica,,,2018_Jun_22_1641,stomp,60.1779093925,,,,sub-11,7.0,4.301,1,3.0,3.0,0.0,3.0
5,Folk,,,2018_Jun_22_1641,stomp,60.1779093925,,,,sub-11,2.0,3.458,1,4.0,4.0,0.0,4.0
6,Rap/HipHop,,,2018_Jun_22_1641,stomp,60.1779093925,,,,sub-11,6.0,10.398,1,5.0,5.0,0.0,5.0
7,Soul/Funk,,,2018_Jun_22_1641,stomp,60.1779093925,,,,sub-11,2.0,5.5,1,6.0,6.0,0.0,6.0
8,Religious,,,2018_Jun_22_1641,stomp,60.1779093925,,,,sub-11,2.0,10.218,1,7.0,7.0,0.0,7.0
9,Alternative,,,2018_Jun_22_1641,stomp,60.1779093925,,,,sub-11,6.0,3.5239999999999996,1,8.0,8.0,0.0,8.0
10,Jazz,,,2018_Jun_22_1641,stomp,60.1779093925,,,,sub-11,2.0,2.89,1,9.0,9.0,0.0,9.0
11,Rock,,,2018_Jun_22_1641,stomp,60.1779093925,,,,sub-11,4.0,7.557,1,10.0,10.0,0.0,10.0
12,Pop,,,2018_Jun_22_1641,stomp,60.1779093925,,,,sub-11,5.0,12.725,1,11.0,11.0,0.0,11.0
13,Heavy/Metal,,,2018_Jun_22_1641,stomp,60.1779093925,,,,sub-11,1.0,3.925,1,12.0,12.0,0.0,12.0
14,Soundtrack/Theme_Song,,,2018_Jun_22_1641,stomp,60.1779093925,,,,sub-11,6.0,6.212000000000001,1,13.0,13.0,0.0,13.0
0,,,,2018_Jun_12_1832,stomp,60.234083069300006,right,4.94894385338,,sub-03,,,1,,,,
1,Klassik,,,2018_Jun_12_1832,stomp,60.234083069300006,,,,sub-03,7.0,2.8169999999999997,1,0.0,0.0,0.0,0.0
2,Blues,,,2018_Jun_12_1832,stomp,60.234083069300006,,,,sub-03,6.0,3.52,1,1.0,1.0,0.0,1.0
3,Country,,,2018_Jun_12_1832,stomp,60.234083069300006,,,,sub-03,3.0,2.457,1,2.0,2.0,0.0,2.0
4,Dance/Electronica,,,2018_Jun_12_1832,stomp,60.234083069300006,,,,sub-03,1.0,2.852,1,3.0,3.0,0.0,3.0
5,Folk,,,2018_Jun_12_1832,stomp,60.234083069300006,,,,sub-03,4.0,2.86,1,4.0,4.0,0.0,4.0
6,Rap/HipHop,,,2018_Jun_12_1832,stomp,60.234083069300006,,,,sub-03,3.0,2.7880000000000003,1,5.0,5.0,0.0,5.0
7,Soul/Funk,,,2018_Jun_12_1832,stomp,60.234083069300006,,,,sub-03,2.0,2.391,1,6.0,6.0,0.0,6.0
8,Religious,,,2018_Jun_12_1832,stomp,60.234083069300006,,,,sub-03,1.0,2.725,1,7.0,7.0,0.0,7.0
9,Alternative,,,2018_Jun_12_1832,stomp,60.234083069300006,,,,sub-03,4.0,2.955,1,8.0,8.0,0.0,8.0
10,Jazz,,,2018_Jun_12_1832,stomp,60.234083069300006,,,,sub-03,6.0,2.535,1,9.0,9.0,0.0,9.0
11,Rock,,,2018_Jun_12_1832,stomp,60.234083069300006,,,,sub-03,5.0,1.963,1,10.0,10.0,0.0,10.0
12,Pop,,,2018_Jun_12_1832,stomp,60.234083069300006,,,,sub-03,4.0,2.13,1,11.0,11.0,0.0,11.0
13,Heavy/Metal,,,2018_Jun_12_1832,stomp,60.234083069300006,,,,sub-03,1.0,2.26,1,12.0,12.0,0.0,12.0
14,Soundtrack/Theme_Song,,,2018_Jun_12_1832,stomp,60.234083069300006,,,,sub-03,3.0,5.377000000000001,1,13.0,13.0,0.0,13.0
0,,,,2018_Jun_22_1428,stomp,60.134770116599995,right,7.624637126919999,,sub-10,,,1,,,,
1,Klassik,,,2018_Jun_22_1428,stomp,60.134770116599995,,,,sub-10,6.0,3.543,1,0.0,0.0,0.0,0.0
2,Blues,,,2018_Jun_22_1428,stomp,60.134770116599995,,,,sub-10,4.0,3.841,1,1.0,1.0,0.0,1.0
3,Country,,,2018_Jun_22_1428,stomp,60.134770116599995,,,,sub-10,4.0,2.129,1,2.0,2.0,0.0,2.0
4,Dance/Electronica,,,2018_Jun_22_1428,stomp,60.134770116599995,,,,sub-10,2.0,3.4389999999999996,1,3.0,3.0,0.0,3.0
5,Folk,,,2018_Jun_22_1428,stomp,60.134770116599995,,,,sub-10,3.0,2.648,1,4.0,4.0,0.0,4.0
6,Rap/HipHop,,,2018_Jun_22_1428,stomp,60.134770116599995,,,,sub-10,1.0,1.814,1,5.0,5.0,0.0,5.0
7,Soul/Funk,,,2018_Jun_22_1428,stomp,60.134770116599995,,,,sub-10,2.0,2.379,1,6.0,6.0,0.0,6.0
8,Religious,,,2018_Jun_22_1428,stomp,60.134770116599995,,,,sub-10,6.0,2.497,1,7.0,7.0,0.0,7.0
9,Alternative,,,2018_Jun_22_1428,stomp,60.134770116599995,,,,sub-10,4.0,2.278,1,8.0,8.0,0.0,8.0
10,Jazz,,,2018_Jun_22_1428,stomp,60.134770116599995,,,,sub-10,6.0,1.982,1,9.0,9.0,0.0,9.0
11,Rock,,,2018_Jun_22_1428,stomp,60.134770116599995,,,,sub-10,3.0,2.449,1,10.0,10.0,0.0,10.0
12,Pop,,,2018_Jun_22_1428,stomp,60.134770116599995,,,,sub-10,7.0,2.0340000000000003,1,11.0,11.0,0.0,11.0
13,Heavy/Metal,,,2018_Jun_22_1428,stomp,60.134770116599995,,,,sub-10,1.0,1.683,1,12.0,12.0,0.0,12.0
14,Soundtrack/Theme_Song,,,2018_Jun_22_1428,stomp,60.134770116599995,,,,sub-10,7.0,2.2769999999999997,1,13.0,13.0,0.0,13.0
0,,,,2018_Jun_27_1524,stomp,60.1449454089,right,9.48445320129,,sub-15,,,1,,,,
1,Klassik,,,2018_Jun_27_1524,stomp,60.1449454089,,,,sub-15,7.0,3.603,1,0.0,0.0,0.0,0.0
2,Blues,,,2018_Jun_27_1524,stomp,60.1449454089,,,,sub-15,7.0,2.397,1,1.0,1.0,0.0,1.0
3,Country,,,2018_Jun_27_1524,stomp,60.1449454089,,,,sub-15,3.0,2.214,1,2.0,2.0,0.0,2.0
4,Dance/Electronica,,,2018_Jun_27_1524,stomp,60.1449454089,,,,sub-15,1.0,3.639,1,3.0,3.0,0.0,3.0
5,Folk,,,2018_Jun_27_1524,stomp,60.1449454089,,,,sub-15,5.0,3.926,1,4.0,4.0,0.0,4.0
6,Rap/HipHop,,,2018_Jun_27_1524,stomp,60.1449454089,,,,sub-15,1.0,3.1260000000000003,1,5.0,5.0,0.0,5.0
7,Soul/Funk,,,2018_Jun_27_1524,stomp,60.1449454089,,,,sub-15,5.0,2.2969999999999997,1,6.0,6.0,0.0,6.0
8,Religious,,,2018_Jun_27_1524,stomp,60.1449454089,,,,sub-15,3.0,2.298,1,7.0,7.0,0.0,7.0
9,Alternative,,,2018_Jun_27_1524,stomp,60.1449454089,,,,sub-15,5.0,2.891,1,8.0,8.0,0.0,8.0
10,Jazz,,,2018_Jun_27_1524,stomp,60.1449454089,,,,sub-15,7.0,2.5789999999999997,1,9.0,9.0,0.0,9.0
11,Rock,,,2018_Jun_27_1524,stomp,60.1449454089,,,,sub-15,3.0,2.863,1,10.0,10.0,0.0,10.0
12,Pop,,,2018_Jun_27_1524,stomp,60.1449454089,,,,sub-15,5.0,2.345,1,11.0,11.0,0.0,11.0
13,Heavy/Metal,,,2018_Jun_27_1524,stomp,60.1449454089,,,,sub-15,1.0,2.5469999999999997,1,12.0,12.0,0.0,12.0
14,Soundtrack/Theme_Song,,,2018_Jun_27_1524,stomp,60.1449454089,,,,sub-15,5.0,4.254,1,13.0,13.0,0.0,13.0
0,,,,2018_Jun_08_1818,stomp,60.1023701029,space,10.6437559128,,sub-01,,,1,,,,
1,Klassik,,,2018_Jun_08_1818,stomp,60.1023701029,,,,sub-01,4.0,5.9879999999999995,1,0.0,0.0,0.0,0.0
2,Blues,,,2018_Jun_08_1818,stomp,60.1023701029,,,,sub-01,5.0,4.118,1,1.0,1.0,0.0,1.0
3,Country,,,2018_Jun_08_1818,stomp,60.1023701029,,,,sub-01,5.0,2.1,1,2.0,2.0,0.0,2.0
4,Dance/Electronica,,,2018_Jun_08_1818,stomp,60.1023701029,,,,sub-01,4.0,2.484,1,3.0,3.0,0.0,3.0
5,Folk,,,2018_Jun_08_1818,stomp,60.1023701029,,,,sub-01,4.0,2.023,1,4.0,4.0,0.0,4.0
6,Rap/HipHop,,,2018_Jun_08_1818,stomp,60.1023701029,,,,sub-01,3.0,2.039,1,5.0,5.0,0.0,5.0
7,Soul/Funk,,,2018_Jun_08_1818,stomp,60.1023701029,,,,sub-01,3.0,3.4,1,6.0,6.0,0.0,6.0
8,Religious,,,2018_Jun_08_1818,stomp,60.1023701029,,,,sub-01,3.0,2.267,1,7.0,7.0,0.0,7.0
9,Alternative,,,2018_Jun_08_1818,stomp,60.1023701029,,,,sub-01,5.0,3.0,1,8.0,8.0,0.0,8.0
10,Jazz,,,2018_Jun_08_1818,stomp,60.1023701029,,,,sub-01,4.0,3.088,1,9.0,9.0,0.0,9.0
11,Rock,,,2018_Jun_08_1818,stomp,60.1023701029,,,,sub-01,7.0,3.37,1,10.0,10.0,0.0,10.0
12,Pop,,,2018_Jun_08_1818,stomp,60.1023701029,,,,sub-01,2.0,4.738,1,11.0,11.0,0.0,11.0
13,Heavy/Metal,,,2018_Jun_08_1818,stomp,60.1023701029,,,,sub-01,7.0,2.37,1,12.0,12.0,0.0,12.0
14,Soundtrack/Theme_Song,,,2018_Jun_08_1818,stomp,60.1023701029,,,,sub-01,4.0,3.748,1,13.0,13.0,0.0,13.0
0,,,,2018_Jun_12_1626,stomp,60.200366285600005,right,4.02113199234,,sub-02,,,1,,,,
1,Klassik,,,2018_Jun_12_1626,stomp,60.200366285600005,,,,sub-02,5.0,7.19,1,0.0,0.0,0.0,0.0
2,Blues,,,2018_Jun_12_1626,stomp,60.200366285600005,,,,sub-02,6.0,2.563,1,1.0,1.0,0.0,1.0
3,Country,,,2018_Jun_12_1626,stomp,60.200366285600005,,,,sub-02,3.0,2.9939999999999998,1,2.0,2.0,0.0,2.0
4,Dance/Electronica,,,2018_Jun_12_1626,stomp,60.200366285600005,,,,sub-02,2.0,3.0410000000000004,1,3.0,3.0,0.0,3.0
5,Folk,,,2018_Jun_12_1626,stomp,60.200366285600005,,,,sub-02,2.0,2.217,1,4.0,4.0,0.0,4.0
6,Rap/HipHop,,,2018_Jun_12_1626,stomp,60.200366285600005,,,,sub-02,4.0,4.952,1,5.0,5.0,0.0,5.0
7,Soul/Funk,,,2018_Jun_12_1626,stomp,60.200366285600005,,,,sub-02,2.0,3.16,1,6.0,6.0,0.0,6.0
8,Religious,,,2018_Jun_12_1626,stomp,60.200366285600005,,,,sub-02,2.0,3.128,1,7.0,7.0,0.0,7.0
9,Alternative,,,2018_Jun_12_1626,stomp,60.200366285600005,,,,sub-02,6.0,4.372,1,8.0,8.0,0.0,8.0
10,Jazz,,,2018_Jun_12_1626,stomp,60.200366285600005,,,,sub-02,4.0,2.89,1,9.0,9.0,0.0,9.0
11,Rock,,,2018_Jun_12_1626,stomp,60.200366285600005,,,,sub-02,7.0,2.798,1,10.0,10.0,0.0,10.0
12,Pop,,,2018_Jun_12_1626,stomp,60.200366285600005,,,,sub-02,3.0,2.864,1,11.0,11.0,0.0,11.0
13,Heavy/Metal,,,2018_Jun_12_1626,stomp,60.200366285600005,,,,sub-02,5.0,3.345,1,12.0,12.0,0.0,12.0
14,Soundtrack/Theme_Song,,,2018_Jun_12_1626,stomp,60.200366285600005,,,,sub-02,5.0,3.5239999999999996,1,13.0,13.0,0.0,13.0
0,,,,2018_Jun_24_1305,stomp,60.2058102865,right,18.5175261497,,sub-12,,,1,,,,
1,Klassik,,,2018_Jun_24_1305,stomp,60.2058102865,,,,sub-12,3.0,9.472000000000001,1,0.0,0.0,0.0,0.0
2,Blues,,,2018_Jun_24_1305,stomp,60.2058102865,,,,sub-12,5.0,7.178,1,1.0,1.0,0.0,1.0
3,Country,,,2018_Jun_24_1305,stomp,60.2058102865,,,,sub-12,6.0,5.02,1,2.0,2.0,0.0,2.0
4,Dance/Electronica,,,2018_Jun_24_1305,stomp,60.2058102865,,,,sub-12,4.0,3.323,1,3.0,3.0,0.0,3.0
5,Folk,,,2018_Jun_24_1305,stomp,60.2058102865,,,,sub-12,4.0,4.441,1,4.0,4.0,0.0,4.0
6,Rap/HipHop,,,2018_Jun_24_1305,stomp,60.2058102865,,,,sub-12,3.0,4.769,1,5.0,5.0,0.0,5.0
7,Soul/Funk,,,2018_Jun_24_1305,stomp,60.2058102865,,,,sub-12,6.0,4.438,1,6.0,6.0,0.0,6.0
8,Religious,,,2018_Jun_24_1305,stomp,60.2058102865,,,,sub-12,2.0,3.443,1,7.0,7.0,0.0,7.0
9,Alternative,,,2018_Jun_24_1305,stomp,60.2058102865,,,,sub-12,5.0,2.595,1,8.0,8.0,0.0,8.0
10,Jazz,,,2018_Jun_24_1305,stomp,60.2058102865,,,,sub-12,2.0,4.018,1,9.0,9.0,0.0,9.0
11,Rock,,,2018_Jun_24_1305,stomp,60.2058102865,,,,sub-12,6.0,2.249,1,10.0,10.0,0.0,10.0
12,Pop,,,2018_Jun_24_1305,stomp,60.2058102865,,,,sub-12,1.0,2.713,1,11.0,11.0,0.0,11.0
13,Heavy/Metal,,,2018_Jun_24_1305,stomp,60.2058102865,,,,sub-12,5.0,3.0780000000000003,1,12.0,12.0,0.0,12.0
14,Soundtrack/Theme_Song,,,2018_Jun_24_1305,stomp,60.2058102865,,,,sub-12,2.0,4.984,1,13.0,13.0,0.0,13.0
0,,,,2018_Jun_24_1858,stomp,60.2405713966,right,20.2617650032,,sub-14,,,1,,,,
1,Klassik,,,2018_Jun_24_1858,stomp,60.2405713966,,,,sub-14,2.0,5.6339999999999995,1,0.0,0.0,0.0,0.0
2,Blues,,,2018_Jun_24_1858,stomp,60.2405713966,,,,sub-14,4.0,4.4719999999999995,1,1.0,1.0,0.0,1.0
3,Country,,,2018_Jun_24_1858,stomp,60.2405713966,,,,sub-14,5.0,2.594,1,2.0,2.0,0.0,2.0
4,Dance/Electronica,,,2018_Jun_24_1858,stomp,60.2405713966,,,,sub-14,3.0,3.655,1,3.0,3.0,0.0,3.0
5,Folk,,,2018_Jun_24_1858,stomp,60.2405713966,,,,sub-14,4.0,2.6460000000000004,1,4.0,4.0,0.0,4.0
6,Rap/HipHop,,,2018_Jun_24_1858,stomp,60.2405713966,,,,sub-14,7.0,2.826,1,5.0,5.0,0.0,5.0
7,Soul/Funk,,,2018_Jun_24_1858,stomp,60.2405713966,,,,sub-14,6.0,4.221,1,6.0,6.0,0.0,6.0
8,Religious,,,2018_Jun_24_1858,stomp,60.2405713966,,,,sub-14,5.0,3.51,1,7.0,7.0,0.0,7.0
9,Alternative,,,2018_Jun_24_1858,stomp,60.2405713966,,,,sub-14,5.0,5.25,1,8.0,8.0,0.0,8.0
10,Jazz,,,2018_Jun_24_1858,stomp,60.2405713966,,,,sub-14,4.0,2.705,1,9.0,9.0,0.0,9.0
11,Rock,,,2018_Jun_24_1858,stomp,60.2405713966,,,,sub-14,4.0,3.761,1,10.0,10.0,0.0,10.0
12,Pop,,,2018_Jun_24_1858,stomp,60.2405713966,,,,sub-14,5.0,2.099,1,11.0,11.0,0.0,11.0
13,Heavy/Metal,,,2018_Jun_24_1858,stomp,60.2405713966,,,,sub-14,1.0,2.247,1,12.0,12.0,0.0,12.0
14,Soundtrack/Theme_Song,,,2018_Jun_24_1858,stomp,60.2405713966,,,,sub-14,4.0,5.962999999999999,1,13.0,13.0,0.0,13.0
0,,,,2018_Jun_17_1754,stomp,60.0647575459,right,28.5710170269,,sub-07,,,1,,,,
1,Klassik,,,2018_Jun_17_1754,stomp,60.0647575459,,,,sub-07,7.0,4.757,1,0.0,0.0,0.0,0.0
2,Blues,,,2018_Jun_17_1754,stomp,60.0647575459,,,,sub-07,4.0,4.996,1,1.0,1.0,0.0,1.0
3,Country,,,2018_Jun_17_1754,stomp,60.0647575459,,,,sub-07,4.0,3.795,1,2.0,2.0,0.0,2.0
4,Dance/Electronica,,,2018_Jun_17_1754,stomp,60.0647575459,,,,sub-07,1.0,3.2510000000000003,1,3.0,3.0,0.0,3.0
5,Folk,,,2018_Jun_17_1754,stomp,60.0647575459,,,,sub-07,6.0,12.754000000000001,1,4.0,4.0,0.0,4.0
6,Rap/HipHop,,,2018_Jun_17_1754,stomp,60.0647575459,,,,sub-07,2.0,5.273,1,5.0,5.0,0.0,5.0
7,Soul/Funk,,,2018_Jun_17_1754,stomp,60.0647575459,,,,sub-07,5.0,3.483,1,6.0,6.0,0.0,6.0
8,Religious,,,2018_Jun_17_1754,stomp,60.0647575459,,,,sub-07,1.0,26.238000000000003,1,7.0,7.0,0.0,7.0
9,Alternative,,,2018_Jun_17_1754,stomp,60.0647575459,,,,sub-07,5.0,6.2410000000000005,1,8.0,8.0,0.0,8.0
10,Jazz,,,2018_Jun_17_1754,stomp,60.0647575459,,,,sub-07,5.0,3.661,1,9.0,9.0,0.0,9.0
11,Rock,,,2018_Jun_17_1754,stomp,60.0647575459,,,,sub-07,7.0,3.3139999999999996,1,10.0,10.0,0.0,10.0
12,Pop,,,2018_Jun_17_1754,stomp,60.0647575459,,,,sub-07,3.0,5.439,1,11.0,11.0,0.0,11.0
13,Heavy/Metal,,,2018_Jun_17_1754,stomp,60.0647575459,,,,sub-07,4.0,3.207,1,12.0,12.0,0.0,12.0
14,Soundtrack/Theme_Song,,,2018_Jun_17_1754,stomp,60.0647575459,,,,sub-07,6.0,3.537,1,13.0,13.0,0.0,13.0
0,,,,2018_Jun_24_1451,stomp,60.222494070100005,right,5.549338102339999,,sub-13,,,1,,,,
1,Klassik,,,2018_Jun_24_1451,stomp,60.222494070100005,,,,sub-13,4.0,11.514000000000001,1,0.0,0.0,0.0,0.0
2,Blues,,,2018_Jun_24_1451,stomp,60.222494070100005,,,,sub-13,5.0,3.908,1,1.0,1.0,0.0,1.0
3,Country,,,2018_Jun_24_1451,stomp,60.222494070100005,,,,sub-13,2.0,4.338,1,2.0,2.0,0.0,2.0
4,Dance/Electronica,,,2018_Jun_24_1451,stomp,60.222494070100005,,,,sub-13,4.0,5.747000000000001,1,3.0,3.0,0.0,3.0
5,Folk,,,2018_Jun_24_1451,stomp,60.222494070100005,,,,sub-13,4.0,3.594,1,4.0,4.0,0.0,4.0
6,Rap/HipHop,,,2018_Jun_24_1451,stomp,60.222494070100005,,,,sub-13,6.0,3.839,1,5.0,5.0,0.0,5.0
7,Soul/Funk,,,2018_Jun_24_1451,stomp,60.222494070100005,,,,sub-13,7.0,5.3839999999999995,1,6.0,6.0,0.0,6.0
8,Religious,,,2018_Jun_24_1451,stomp,60.222494070100005,,,,sub-13,1.0,5.718,1,7.0,7.0,0.0,7.0
9,Alternative,,,2018_Jun_24_1451,stomp,60.222494070100005,,,,sub-13,6.0,2.843,1,8.0,8.0,0.0,8.0
10,Jazz,,,2018_Jun_24_1451,stomp,60.222494070100005,,,,sub-13,7.0,2.656,1,9.0,9.0,0.0,9.0
11,Rock,,,2018_Jun_24_1451,stomp,60.222494070100005,,,,sub-13,6.0,2.234,1,10.0,10.0,0.0,10.0
12,Pop,,,2018_Jun_24_1451,stomp,60.222494070100005,,,,sub-13,5.0,2.182,1,11.0,11.0,0.0,11.0
13,Heavy/Metal,,,2018_Jun_24_1451,stomp,60.222494070100005,,,,sub-13,7.0,2.414,1,12.0,12.0,0.0,12.0
14,Soundtrack/Theme_Song,,,2018_Jun_24_1451,stomp,60.222494070100005,,,,sub-13,5.0,3.108,1,13.0,13.0,0.0,13.0
0,,,,2018_Jun_17_1530,stomp,60.2260394844,space,4.18913912773,,sub-06,,,1,,,,
1,Klassik,,,2018_Jun_17_1530,stomp,60.2260394844,,,,sub-06,3.0,9.42,1,0.0,0.0,0.0,0.0
2,Blues,,,2018_Jun_17_1530,stomp,60.2260394844,,,,sub-06,4.0,4.97,1,1.0,1.0,0.0,1.0
3,Country,,,2018_Jun_17_1530,stomp,60.2260394844,,,,sub-06,2.0,2.678,1,2.0,2.0,0.0,2.0
4,Dance/Electronica,,,2018_Jun_17_1530,stomp,60.2260394844,,,,sub-06,5.0,4.617,1,3.0,3.0,0.0,3.0
5,Folk,,,2018_Jun_17_1530,stomp,60.2260394844,,,,sub-06,5.0,3.4610000000000003,1,4.0,4.0,0.0,4.0
6,Rap/HipHop,,,2018_Jun_17_1530,stomp,60.2260394844,,,,sub-06,4.0,3.7060000000000004,1,5.0,5.0,0.0,5.0
7,Soul/Funk,,,2018_Jun_17_1530,stomp,60.2260394844,,,,sub-06,5.0,4.122,1,6.0,6.0,0.0,6.0
8,Religious,,,2018_Jun_17_1530,stomp,60.2260394844,,,,sub-06,3.0,10.001,1,7.0,7.0,0.0,7.0
9,Alternative,,,2018_Jun_17_1530,stomp,60.2260394844,,,,sub-06,6.0,3.3739999999999997,1,8.0,8.0,0.0,8.0
10,Jazz,,,2018_Jun_17_1530,stomp,60.2260394844,,,,sub-06,3.0,3.3369999999999997,1,9.0,9.0,0.0,9.0
11,Rock,,,2018_Jun_17_1530,stomp,60.2260394844,,,,sub-06,7.0,2.847,1,10.0,10.0,0.0,10.0
12,Pop,,,2018_Jun_17_1530,stomp,60.2260394844,,,,sub-06,7.0,3.0460000000000003,1,11.0,11.0,0.0,11.0
13,Heavy/Metal,,,2018_Jun_17_1530,stomp,60.2260394844,,,,sub-06,5.0,2.58,1,12.0,12.0,0.0,12.0
14,Soundtrack/Theme_Song,,,2018_Jun_17_1530,stomp,60.2260394844,,,,sub-06,6.0,3.3710000000000004,1,13.0,13.0,0.0,13.0
0,,,,2018_Jun_29_1501,stomp,60.2453303917,right,10.4143698215,,sub-16,,,1,,,,
1,Klassik,,,2018_Jun_29_1501,stomp,60.2453303917,,,,sub-16,5.0,5.596,1,0.0,0.0,0.0,0.0
2,Blues,,,2018_Jun_29_1501,stomp,60.2453303917,,,,sub-16,6.0,3.841,1,1.0,1.0,0.0,1.0
3,Country,,,2018_Jun_29_1501,stomp,60.2453303917,,,,sub-16,2.0,1.796,1,2.0,2.0,0.0,2.0
4,Dance/Electronica,,,2018_Jun_29_1501,stomp,60.2453303917,,,,sub-16,5.0,4.6160000000000005,1,3.0,3.0,0.0,3.0
5,Folk,,,2018_Jun_29_1501,stomp,60.2453303917,,,,sub-16,3.0,2.149,1,4.0,4.0,0.0,4.0
6,Rap/HipHop,,,2018_Jun_29_1501,stomp,60.2453303917,,,,sub-16,6.0,1.761,1,5.0,5.0,0.0,5.0
7,Soul/Funk,,,2018_Jun_29_1501,stomp,60.2453303917,,,,sub-16,7.0,2.013,1,6.0,6.0,0.0,6.0
8,Religious,,,2018_Jun_29_1501,stomp,60.2453303917,,,,sub-16,4.0,2.513,1,7.0,7.0,0.0,7.0
9,Alternative,,,2018_Jun_29_1501,stomp,60.2453303917,,,,sub-16,5.0,2.03,1,8.0,8.0,0.0,8.0
10,Jazz,,,2018_Jun_29_1501,stomp,60.2453303917,,,,sub-16,6.0,2.142,1,9.0,9.0,0.0,9.0
11,Rock,,,2018_Jun_29_1501,stomp,60.2453303917,,,,sub-16,5.0,2.116,1,10.0,10.0,0.0,10.0
12,Pop,,,2018_Jun_29_1501,stomp,60.2453303917,,,,sub-16,4.0,1.8159999999999998,1,11.0,11.0,0.0,11.0
13,Heavy/Metal,,,2018_Jun_29_1501,stomp,60.2453303917,,,,sub-16,2.0,2.248,1,12.0,12.0,0.0,12.0
14,Soundtrack/Theme_Song,,,2018_Jun_29_1501,stomp,60.2453303917,,,,sub-16,6.0,2.659,1,13.0,13.0,0.0,13.0
0,,,,2018_Jun_17_1309,stomp,61.301592498199994,right,4.1714720726,,sub-05,,,1,,,,
1,Klassik,,,2018_Jun_17_1309,stomp,61.301592498199994,,,,sub-05,5.0,4.803999999999999,1,0.0,0.0,0.0,0.0
2,Blues,,,2018_Jun_17_1309,stomp,61.301592498199994,,,,sub-05,4.0,2.895,1,1.0,1.0,0.0,1.0
3,Country,,,2018_Jun_17_1309,stomp,61.301592498199994,,,,sub-05,2.0,2.079,1,2.0,2.0,0.0,2.0
4,Dance/Electronica,,,2018_Jun_17_1309,stomp,61.301592498199994,,,,sub-05,5.0,3.655,1,3.0,3.0,0.0,3.0
5,Folk,,,2018_Jun_17_1309,stomp,61.301592498199994,,,,sub-05,3.0,1.9340000000000002,1,4.0,4.0,0.0,4.0
6,Rap/HipHop,,,2018_Jun_17_1309,stomp,61.301592498199994,,,,sub-05,5.0,2.594,1,5.0,5.0,0.0,5.0
7,Soul/Funk,,,2018_Jun_17_1309,stomp,61.301592498199994,,,,sub-05,4.0,3.043,1,6.0,6.0,0.0,6.0
8,Religious,,,2018_Jun_17_1309,stomp,61.301592498199994,,,,sub-05,3.0,2.48,1,7.0,7.0,0.0,7.0
9,Alternative,,,2018_Jun_17_1309,stomp,61.301592498199994,,,,sub-05,4.0,1.7480000000000002,1,8.0,8.0,0.0,8.0
10,Jazz,,,2018_Jun_17_1309,stomp,61.301592498199994,,,,sub-05,5.0,1.777,1,9.0,9.0,0.0,9.0
11,Rock,,,2018_Jun_17_1309,stomp,61.301592498199994,,,,sub-05,4.0,1.6680000000000001,1,10.0,10.0,0.0,10.0
12,Pop,,,2018_Jun_17_1309,stomp,61.301592498199994,,,,sub-05,6.0,2.249,1,11.0,11.0,0.0,11.0
13,Heavy/Metal,,,2018_Jun_17_1309,stomp,61.301592498199994,,,,sub-05,1.0,1.965,1,12.0,12.0,0.0,12.0
14,Soundtrack/Theme_Song,,,2018_Jun_17_1309,stomp,61.301592498199994,,,,sub-05,7.0,2.676,1,13.0,13.0,0.0,13.0
0,,,,2001_Jan_01_0221,stomp,60.2747230244,right,3.42335093021,,sub-08,,,1,,,,
1,Klassik,,,2001_Jan_01_0221,stomp,60.2747230244,,,,sub-08,5.0,7.5760000000000005,1,0.0,0.0,0.0,0.0
2,Blues,,,2001_Jan_01_0221,stomp,60.2747230244,,,,sub-08,7.0,1.962,1,1.0,1.0,0.0,1.0
3,Country,,,2001_Jan_01_0221,stomp,60.2747230244,,,,sub-08,3.0,6.13,1,2.0,2.0,0.0,2.0
4,Dance/Electronica,,,2001_Jan_01_0221,stomp,60.2747230244,,,,sub-08,1.0,1.66,1,3.0,3.0,0.0,3.0
5,Folk,,,2001_Jan_01_0221,stomp,60.2747230244,,,,sub-08,4.0,3.3280000000000003,1,4.0,4.0,0.0,4.0
6,Rap/HipHop,,,2001_Jan_01_0221,stomp,60.2747230244,,,,sub-08,2.0,1.979,1,5.0,5.0,0.0,5.0
7,Soul/Funk,,,2001_Jan_01_0221,stomp,60.2747230244,,,,sub-08,4.0,4.004,1,6.0,6.0,0.0,6.0
8,Religious,,,2001_Jan_01_0221,stomp,60.2747230244,,,,sub-08,3.0,4.986000000000001,1,7.0,7.0,0.0,7.0
9,Alternative,,,2001_Jan_01_0221,stomp,60.2747230244,,,,sub-08,4.0,2.537,1,8.0,8.0,0.0,8.0
10,Jazz,,,2001_Jan_01_0221,stomp,60.2747230244,,,,sub-08,6.0,1.7830000000000001,1,9.0,9.0,0.0,9.0
11,Rock,,,2001_Jan_01_0221,stomp,60.2747230244,,,,sub-08,7.0,1.683,1,10.0,10.0,0.0,10.0
12,Pop,,,2001_Jan_01_0221,stomp,60.2747230244,,,,sub-08,4.0,2.249,1,11.0,11.0,0.0,11.0
13,Heavy/Metal,,,2001_Jan_01_0221,stomp,60.2747230244,,,,sub-08,7.0,2.447,1,12.0,12.0,0.0,12.0
14,Soundtrack/Theme_Song,,,2001_Jan_01_0221,stomp,60.2747230244,,,,sub-08,7.0,2.674,1,13.0,13.0,0.0,13.0
